File: XRD/Reference Spectra/Pd2Zn/powderpattern_xy_collCode#649139.csv
0.1,0.0
0.2,0.0
0.3,0.0
0.4,0.0
0.5,0.0
0.6,0.0
0.7,0.0
0.8,0.0
0.9,0.0
1.0,0.0
1.1,0.0
1.2,0.0
1.3,0.0
1.4,0.0
1.5,0.0
1.6,0.0
1.7,0.0
1.8,0.0
1.9,0.0
2.0,0.0
2.1,0.0
2.2,0.0
2.3,0.0
2.4,0.0
2.5,0.0
2.6,0.0
2.7,0.0
2.8,0.0
2.9,0.0
3.0,0.0
3.1,0.0
3.2,0.0
3.3,0.0
3.4,0.0
3.5,0.0
3.6,0.0
3.7,0.0
3.8,0.0
3.9,0.0
4.0,0.0
4.1,0.0
4.2,0.0
4.3,0.0
4.4,0.0
4.5,0.0
4.6,0.0
4.7,0.0
4.8,0.0
4.9,0.0
5.0,0.0
5.1,0.0
5.2,0.0
5.3,0.0
5.4,0.0
5.5,0.0
5.6,0.0
5.7,0.0
5.8,0.0
5.9,0.0
6.0,0.0
6.1,0.0
6.2,0.0
6.3,0.0
6.4,0.0
6.5,0.0
6.6,0.0
6.7,0.0
6.8,0.0
6.9,0.0
7.0,0.0
7.1,0.0
7.2,0.0
7.3,0.0
7.4,0.0
7.5,0.0
7.6,0.0
7.7,0.0
7.8,0.0
7.9,0.0
8.0,0.0
8.1,0.0
8.2,0.0
8.3,0.0
8.4,0.0
8.5,0.0
8.6,0.0
8.7,0.0
8.8,0.0
8.9,0.0
9.0,0.0
9.1,0.0
9.2,0.0
9.3,0.0
9.4,0.0
9.5,0.0
9.6,0.0
9.7,0.0
9.8,0.0
9.9,0.0
10.0,0.0
10.1,0.0
10.2,0.0
10.3,0.0
10.4,0.0
10.5,0.0
10.6,0.0
10.7,0.0
10.8,0.0
10.9,0.0
11.0,0.0
11.1,0.0
11.2,0.0
11.3,0.0
11.4,0.0
11.5,0.0
11.6,0.0
11.7,0.0
11.8,0.0
11.9,0.0
12.0,0.0
12.1,0.0
12.2,0.0
12.3,0.0
12.4,0.0
12.5,0.0
12.6,0.0
12.7,0.0
12.8,0.0
12.9,0.0
13.0,0.0
13.1,0.0
13.2,0.0
13.3,0.0
13.4,0.0
13.5,0.0
13.6,0.0
13.7,0.0
13.8,0.0
13.9,0.0
14.0,0.0
14.1,0.0
14.2,0.0
14.3,0.0
14.4,0.0
14.5,0.0
14.6,0.0
14.7,0.0
14.8,0.0
14.9,0.0
15.0,0.0
15.1,0.0
15.2,0.0
15.3,0.0
15.4,0.0
15.5,0.0
15.6,0.0
15.7,0.0
15.8,0.0
15.9,0.0
16.0,0.0
16.1,0.0
16.2,0.0
16.3,0.0
16.4,0.0
16.5,0.0
16.6,0.0
16.7,0.0
16.8,0.0
16.9,0.0
17.0,0.0
17.1,0.0
17.2,0.0
17.3,0.0
17.4,0.0
17.5,0.0
17.6,0.0
17.7,0.0
17.8,0.0
17.9,0.0
18.0,0.0
18.1,0.0
18.2,0.0
18.3,0.0
18.4,0.0
18.5,0.0
18.6,0.0
18.7,0.0
18.8,0.0
18.9,0.0
19.0,0.0
19.1,0.0
19.2,0.0
19.3,0.0
19.4,0.0
19.5,0.0
19.6,0.0
19.7,0.0
19.8,0.0
19.9,0.0
20.0,2.0
20.1,15.0
20.2,38.0
20.3,40.0
20.4,17.0
20.5,3.0
20.6,0.0
20.7,0.0
20.8,0.0
20.9,0.0
21.0,0.0
21.1,0.0
21.2,0.0
21.3,0.0
21.4,0.0
21.5,0.0
21.6,0.0
21.7,0.0
21.8,0.0
21.9,0.0
22.0,0.0
22.1,0.0
22.2,0.0
22.3,0.0
22.4,0.0
22.5,0.0
22.6,0.0
22.7,0.0
22.8,0.0
22.9,0.0
23.0,0.0
23.1,0.0
23.2,0.0
23.3,0.0
23.4,0.0
23.5,0.0
23.6,0.0
23.7,0.0
23.8,0.0
23.9,0.0
24.0,0.0
24.1,1.0
24.2,12.0
24.3,78.0
24.4,192.0
24.5,187.0
24.6,72.0
24.7,11.0
24.8,1.0
24.9,0.0
25.0,0.0
25.1,0.0
25.2,0.0
25.3,0.0
25.4,0.0
25.5,0.0
25.6,0.0
25.7,0.0
25.8,0.0
25.9,0.0
26.0,0.0
26.1,0.0
26.2,0.0
26.3,0.0
26.4,0.0
26.5,0.0
26.6,0.0
26.7,0.0
26.8,0.0
26.9,0.0
27.0,0.0
27.1,0.0
27.2,0.0
27.3,0.0
27.4,0.0
27.5,0.0
27.6,0.0
27.7,0.0
27.8,0.0
27.9,0.0
28.0,0.0
28.1,0.0
28.2,0.0
28.3,0.0
28.4,1.0
28.5,6.0
28.6,23.0
28.7,34.0
28.8,19.0
28.9,4.0
29.0,0.0
29.1,0.0
29.2,0.0
29.3,0.0
29.4,13.0
29.5,113.0
29.6,389.0
29.7,512.0
29.8,257.0
29.9,49.0
30.0,4.0
30.1,0.0
30.2,0.0
30.3,0.0
30.4,0.0
30.5,0.0
30.6,0.0
30.7,0.0
30.8,0.0
30.9,0.0
31.0,0.0
31.1,0.0
31.2,0.0
31.3,0.0
31.4,0.0
31.5,0.0
31.6,0.0
31.7,0.0
31.8,0.0
31.9,0.0
32.0,0.0
32.1,0.0
32.2,0.0
32.3,0.0
32.4,0.0
32.5,0.0
32.6,0.0
32.7,0.0
32.8,0.0
32.9,0.0
33.0,0.0
33.1,0.0
33.2,0.0
33.3,1.0
33.4,6.0
33.5,9.0
33.6,5.0
33.7,1.0
33.8,0.0
33.9,0.0
34.0,0.0
34.1,0.0
34.2,0.0
34.3,0.0
34.4,0.0
34.5,0.0
34.6,0.0
34.7,0.0
34.8,0.0
34.9,0.0
35.0,0.0
35.1,0.0
35.2,1.0
35.3,10.0
35.4,76.0
35.5,209.0
35.6,213.0
35.7,81.0
35.8,25.0
35.9,188.0
36.0,918.0
36.1,1665.0
36.2,1117.0
36.3,277.0
36.4,25.0
36.5,0.0
36.6,0.0
36.7,0.0
36.8,0.0
36.9,0.0
37.0,0.0
37.1,0.0
37.2,0.0
37.3,0.0
37.4,0.0
37.5,0.0
37.6,0.0
37.7,0.0
37.8,0.0
37.9,0.0
38.0,0.0
38.1,0.0
38.2,0.0
38.3,0.0
38.4,0.0
38.5,0.0
38.6,0.0
38.7,0.0
38.8,5.0
38.9,82.0
39.0,516.0
39.1,1187.0
39.2,996.0
39.3,305.0
39.4,34.0
39.5,0.0
39.6,0.0
39.7,0.0
39.8,11.0
39.9,198.0
40.0,1265.0
40.1,2934.0
40.2,2471.0
40.3,756.0
40.4,84.0
40.5,0.0
40.6,0.0
40.7,0.0
40.8,0.0
40.9,51.0
41.0,518.0
41.1,1922.0
41.2,2578.0
41.3,1338.0
41.4,1272.0
41.5,4587.0
41.6,7216.0
41.7,4711.0
41.8,4046.0
41.9,5764.0
42.0,3645.0
42.1,840.0
42.2,70.0
42.3,0.0
42.4,0.0
42.5,0.0
42.6,0.0
42.7,0.0
42.8,0.0
42.9,0.0
43.0,0.0
43.1,0.0
43.2,0.0
43.3,0.0
43.4,15.0
43.5,271.0
43.6,1712.0
43.7,3869.0
43.8,3129.0
43.9,906.0
44.0,94.0
44.1,0.0
44.2,0.0
44.3,0.0
44.4,0.0
44.5,0.0
44.6,0.0
44.7,0.0
44.8,20.0
44.9,177.0
45.0,564.0
45.1,638.0
45.2,258.0
45.3,37.0
45.4,2.0
45.5,0.0
45.6,0.0
45.7,0.0
45.8,0.0
45.9,0.0
46.0,0.0
46.1,0.0
46.2,0.0
46.3,0.0
46.4,0.0
46.5,0.0
46.6,5.0
46.7,60.0
46.8,274.0
46.9,448.0
47.0,258.0
47.1,53.0
47.2,4.0
47.3,0.0
47.4,0.0
47.5,0.0
47.6,0.0
47.7,0.0
47.8,0.0
47.9,0.0
48.0,0.0
48.1,0.0
48.2,0.0
48.3,0.0
48.4,0.0
48.5,3.0
48.6,7.0
48.7,6.0
48.8,2.0
48.9,0.0
49.0,0.0
49.1,26.0
49.2,271.0
49.3,999.0
49.4,1293.0
49.5,588.0
49.6,94.0
49.7,5.0
49.8,0.0
49.9,0.0
50.0,0.0
50.1,0.0
50.2,0.0
50.3,0.0
50.4,2.0
50.5,19.0
50.6,81.0
50.7,123.0
50.8,66.0
50.9,12.0
51.0,1.0
51.1,0.0
51.2,0.0
51.3,0.0
51.4,0.0
51.5,0.0
51.6,0.0
51.7,0.0
51.8,0.0
51.9,0.0
52.0,0.0
52.1,0.0
52.2,0.0
52.3,0.0
52.4,3.0
52.5,39.0
52.6,194.0
52.7,336.0
52.8,203.0
52.9,43.0
53.0,6.0
53.1,8.0
53.2,7.0
53.3,2.0
53.4,0.0
53.5,0.0
53.6,0.0
53.7,0.0
53.8,0.0
53.9,0.0
54.0,0.0
54.1,0.0
54.2,5.0
54.3,35.0
54.4,78.0
54.5,60.0
54.6,16.0
54.7,1.0
54.8,0.0
54.9,0.0
55.0,0.0
55.1,0.0
55.2,0.0
55.3,0.0
55.4,6.0
55.5,52.0
55.6,158.0
55.7,167.0
55.8,61.0
55.9,8.0
56.0,1.0
56.1,3.0
56.2,4.0
56.3,2.0
56.4,0.0
56.5,0.0
56.6,0.0
56.7,3.0
56.8,28.0
56.9,104.0
57.0,133.0
57.1,59.0
57.2,9.0
57.3,4.0
57.4,37.0
57.5,124.0
57.6,145.0
57.7,60.0
57.8,9.0
57.9,0.0
58.0,0.0
58.1,0.0
58.2,0.0
58.3,0.0
58.4,0.0
58.5,0.0
58.6,0.0
58.7,0.0
58.8,0.0
58.9,0.0
59.0,0.0
59.1,3.0
59.2,46.0
59.3,245.0
59.4,448.0
59.5,282.0
59.6,61.0
59.7,5.0
59.8,3.0
59.9,55.0
60.0,310.0
60.1,602.0
60.2,403.0
60.3,93.0
60.4,7.0
60.5,0.0
60.6,0.0
60.7,0.0
60.8,0.0
60.9,0.0
61.0,0.0
61.1,0.0
61.2,0.0
61.3,5.0
61.4,100.0
61.5,625.0
61.6,1353.0
61.7,1010.0
61.8,260.0
61.9,23.0
62.0,0.0
62.1,0.0
62.2,0.0
62.3,0.0
62.4,0.0
62.5,0.0
62.6,0.0
62.7,0.0
62.8,0.0
62.9,2.0
63.0,29.0
63.1,160.0
63.2,301.0
63.3,195.0
63.4,44.0
63.5,4.0
63.6,3.0
63.7,6.0
63.8,16.0
63.9,30.0
64.0,22.0
64.1,6.0
64.2,0.0
64.3,0.0
64.4,0.0
64.5,0.0
64.6,0.0
64.7,1.0
64.8,13.0
64.9,53.0
65.0,73.0
65.1,35.0
65.2,6.0
65.3,0.0
65.4,0.0
65.5,0.0
65.6,0.0
65.7,0.0
65.8,0.0
65.9,0.0
66.0,0.0
66.1,0.0
66.2,0.0
66.3,0.0
66.4,0.0
66.5,0.0
66.6,0.0
66.7,0.0
66.8,0.0
66.9,0.0
67.0,0.0
67.1,0.0
67.2,0.0
67.3,0.0
67.4,1.0
67.5,6.0
67.6,8.0
67.7,4.0
67.8,29.0
67.9,245.0
68.0,742.0
68.1,778.0
68.2,283.0
68.3,36.0
68.4,0.0
68.5,0.0
68.6,0.0
68.7,0.0
68.8,0.0
68.9,4.0
69.0,33.0
69.1,85.0
69.2,77.0
69.3,24.0
69.4,3.0
69.5,0.0
69.6,0.0
69.7,0.0
69.8,0.0
69.9,0.0
70.0,0.0
70.1,1.0
70.2,8.0
70.3,34.0
70.4,53.0
70.5,30.0
70.6,25.0
70.7,118.0
70.8,258.0
70.9,246.0
71.0,133.0
71.1,41.0
71.2,5.0
71.3,1.0
71.4,20.0
71.5,125.0
71.6,278.0
71.7,224.0
71.8,68.0
71.9,8.0
72.0,0.0
72.1,0.0
72.2,0.0
72.3,0.0
72.4,1.0
72.5,1.0
72.6,0.0
72.7,0.0
72.8,0.0
72.9,0.0
73.0,0.0
73.1,0.0
73.2,0.0
73.3,0.0
73.4,0.0
73.5,0.0
73.6,0.0
73.7,0.0
73.8,0.0
73.9,0.0
74.0,0.0
74.1,1.0
74.2,23.0
74.3,131.0
74.4,313.0
74.5,377.0
74.6,251.0
74.7,79.0
74.8,11.0
74.9,19.0
75.0,114.0
75.1,276.0
75.2,368.0
75.3,354.0
75.4,196.0
75.5,56.0
75.6,76.0
75.7,229.0
75.8,263.0
75.9,107.0
76.0,15.0
76.1,1.0
76.2,0.0
76.3,13.0
76.4,156.0
76.5,683.0
76.6,1086.0
76.7,666.0
76.8,277.0
76.9,175.0
77.0,66.0
77.1,9.0
77.2,0.0
77.3,0.0
77.4,0.0
77.5,0.0
77.6,4.0
77.7,50.0
77.8,210.0
77.9,319.0
78.0,174.0
78.1,34.0
78.2,2.0
78.3,0.0
78.4,0.0
78.5,0.0
78.6,21.0
78.7,193.0
78.8,645.0
78.9,876.0
79.0,791.0
79.1,697.0
79.2,455.0
79.3,422.0
79.4,333.0
79.5,107.0
79.6,13.0
79.7,2.0
79.8,24.0
79.9,132.0
80.0,261.0
80.1,188.0
80.2,50.0
80.3,6.0
80.4,4.0
80.5,3.0
80.6,5.0
80.7,59.0
80.8,296.0
80.9,544.0
81.0,383.0
81.1,188.0
81.2,220.0
81.3,187.0
81.4,69.0
81.5,10.0
81.6,1.0
81.7,0.0
81.8,0.0
81.9,0.0
82.0,0.0
82.1,0.0
82.2,0.0
82.3,0.0
82.4,6.0
82.5,32.0
82.6,61.0
82.7,43.0
82.8,11.0
82.9,3.0
83.0,16.0
83.1,68.0
83.2,103.0
83.3,59.0
83.4,12.0
83.5,1.0
83.6,0.0
83.7,0.0
83.8,1.0
83.9,8.0
84.0,34.0
84.1,56.0
84.2,35.0
84.3,8.0
84.4,1.0
84.5,0.0
84.6,0.0
84.7,0.0
84.8,0.0
84.9,0.0
85.0,6.0
85.1,28.0
85.2,52.0
85.3,37.0
85.4,10.0
85.5,1.0
85.6,0.0
85.7,0.0
85.8,0.0
85.9,0.0
86.0,0.0
86.1,0.0
86.2,0.0
86.3,0.0
86.4,2.0
86.5,14.0
86.6,42.0
86.7,48.0
86.8,21.0
86.9,7.0
87.0,36.0
87.1,137.0
87.2,203.0
87.3,118.0
87.4,27.0
87.5,4.0
87.6,22.0
87.7,121.0
87.8,258.0
87.9,245.0
88.0,203.0
88.1,201.0
88.2,106.0
88.3,27.0
88.4,13.0
88.5,12.0
88.6,6.0
88.7,1.0
88.8,0.0
88.9,0.0
89.0,0.0
89.1,0.0
89.2,4.0
89.3,18.0
89.4,41.0
89.5,40.0
89.6,16.0
89.7,3.0
89.8,0.0
89.9,0.0
90.0,0.0
90.1,0.0
90.2,4.0
90.3,37.0
90.4,132.0
90.5,189.0
90.6,108.0
90.7,25.0
90.8,3.0
90.9,4.0
91.0,11.0
91.1,31.0
91.2,110.0
91.3,203.0
91.4,154.0
91.5,47.0
91.6,6.0
91.7,0.0
91.8,0.0
91.9,5.0
92.0,18.0
92.1,29.0
92.2,19.0
92.3,5.0
92.4,1.0
92.5,0.0
92.6,8.0
92.7,54.0
92.8,156.0
92.9,186.0
93.0,91.0
93.1,23.0
93.2,35.0
93.3,92.0
93.4,106.0
93.5,53.0
93.6,20.0
93.7,17.0
93.8,10.0
93.9,3.0
94.0,0.0
94.1,0.0
94.2,0.0
94.3,0.0
94.4,2.0
94.5,4.0
94.6,4.0
94.7,1.0
94.8,0.0
94.9,0.0
95.0,0.0
95.1,0.0
95.2,0.0
95.3,0.0
95.4,0.0
95.5,0.0
95.6,0.0
95.7,0.0
95.8,2.0
95.9,12.0
96.0,46.0
96.1,114.0
96.2,231.0
96.3,287.0
96.4,168.0
96.5,47.0
96.6,12.0
96.7,11.0
96.8,16.0
96.9,26.0
97.0,69.0
97.1,164.0
97.2,222.0
97.3,211.0
97.4,149.0
97.5,69.0
97.6,29.0
97.7,11.0
97.8,3.0
97.9,0.0
98.0,0.0
98.1,0.0
98.2,0.0
98.3,0.0
98.4,0.0
98.5,0.0
98.6,0.0
98.7,0.0
98.8,1.0
98.9,12.0
99.0,54.0
99.1,114.0
99.2,106.0
99.3,44.0
99.4,9.0
99.5,1.0
99.6,1.0
99.7,11.0
99.8,44.0
99.9,90.0
100.0,107.0
100.1,79.0
100.2,32.0
100.3,7.0
100.4,2.0
100.5,1.0
100.6,0.0
100.7,2.0
100.8,4.0
100.9,5.0
101.0,3.0
101.1,1.0
101.2,0.0
101.3,0.0
101.4,0.0
101.5,0.0
101.6,0.0
101.7,0.0
101.8,0.0
101.9,0.0
102.0,0.0
102.1,0.0
102.2,0.0
102.3,0.0
102.4,0.0
102.5,4.0
102.6,22.0
102.7,52.0
102.8,58.0
102.9,30.0
103.0,8.0
103.1,2.0
103.2,5.0
103.3,10.0
103.4,10.0
103.5,5.0
103.6,2.0
103.7,5.0
103.8,25.0
103.9,64.0
104.0,77.0
104.1,44.0
104.2,12.0
104.3,2.0
104.4,0.0
104.5,0.0
104.6,0.0
104.7,0.0
104.8,0.0
104.9,0.0
105.0,0.0
105.1,0.0
105.2,1.0
105.3,6.0
105.4,13.0
105.5,15.0
105.6,9.0
105.7,2.0
105.8,0.0
105.9,0.0
106.0,0.0
106.1,0.0
106.2,0.0
106.3,0.0
106.4,1.0
106.5,5.0
106.6,24.0
106.7,55.0
106.8,64.0
106.9,38.0
107.0,15.0
107.1,23.0
107.2,62.0
107.3,107.0
107.4,111.0
107.5,69.0
107.6,26.0
107.7,11.0
107.8,32.0
107.9,81.0
108.0,107.0
108.1,80.0
108.2,51.0
108.3,44.0
108.4,30.0
108.5,18.0
108.6,49.0
108.7,158.0
108.8,272.0
108.9,243.0
109.0,112.0
109.1,27.0
109.2,8.0
109.3,25.0
109.4,68.0
109.5,97.0
109.6,74.0
109.7,31.0
109.8,10.0
109.9,7.0
110.0,6.0
110.1,3.0
110.2,1.0
110.3,0.0
110.4,0.0
110.5,1.0
110.6,11.0
110.7,57.0
110.8,155.0
110.9,225.0
111.0,181.0
111.1,105.0
111.2,97.0
111.3,112.0
111.4,110.0
111.5,167.0
111.6,295.0
111.7,332.0
111.8,210.0
111.9,74.0
112.0,14.0
112.1,1.0
112.2,0.0
112.3,0.0
112.4,1.0
112.5,1.0
112.6,0.0
112.7,0.0
112.8,0.0
112.9,0.0
113.0,4.0
113.1,26.0
113.2,99.0
113.3,210.0
113.4,247.0
113.5,162.0
113.6,59.0
113.7,12.0
113.8,2.0
113.9,2.0
114.0,14.0
114.1,43.0
114.2,75.0
114.3,74.0
114.4,42.0
114.5,13.0
114.6,2.0
114.7,0.0
114.8,0.0
114.9,0.0
115.0,0.0
115.1,0.0
115.2,0.0
115.3,2.0
115.4,7.0
115.5,18.0
115.6,27.0
115.7,24.0
115.8,14.0
115.9,10.0
116.0,9.0
116.1,6.0
116.2,3.0
116.3,2.0
116.4,7.0
116.5,28.0
116.6,67.0
116.7,95.0
116.8,79.0
116.9,42.0
117.0,32.0
117.1,75.0
117.2,149.0
117.3,181.0
117.4,140.0
117.5,96.0
117.6,104.0
117.7,122.0
117.8,96.0
117.9,51.0
118.0,29.0
118.1,27.0
118.2,26.0
118.3,25.0
118.4,25.0
118.5,20.0
118.6,10.0
118.7,3.0
118.8,1.0
118.9,0.0
119.0,0.0
119.1,0.0
119.2,0.0
119.3,4.0
119.4,17.0
119.5,51.0
119.6,96.0
119.7,129.0
119.8,136.0
119.9,116.0
120.0,74.0