File: XRD/Reference Spectra/PdZn2/powderpattern_xy_collCode#105753.csv
0.1,0.0
0.2,0.0
0.3,0.0
0.4,0.0
0.5,0.0
0.6,0.0
0.7,0.0
0.8,0.0
0.9,0.0
1.0,0.0
1.1,0.0
1.2,0.0
1.3,0.0
1.4,0.0
1.5,0.0
1.6,0.0
1.7,0.0
1.8,0.0
1.9,0.0
2.0,0.0
2.1,0.0
2.2,0.0
2.3,0.0
2.4,0.0
2.5,0.0
2.6,0.0
2.7,0.0
2.8,0.0
2.9,0.0
3.0,0.0
3.1,0.0
3.2,0.0
3.3,0.0
3.4,0.0
3.5,0.0
3.6,0.0
3.7,0.0
3.8,0.0
3.9,0.0
4.0,0.0
4.1,0.0
4.2,0.0
4.3,0.0
4.4,0.0
4.5,0.0
4.6,0.0
4.7,0.0
4.8,0.0
4.9,0.0
5.0,0.0
5.1,0.0
5.2,0.0
5.3,0.0
5.4,0.0
5.5,0.0
5.6,0.0
5.7,0.0
5.8,0.0
5.9,0.0
6.0,0.0
6.1,0.0
6.2,0.0
6.3,0.0
6.4,0.0
6.5,0.0
6.6,0.0
6.7,0.0
6.8,0.0
6.9,0.0
7.0,1.0
7.1,2.0
7.2,3.0
7.3,1.0
7.4,0.0
7.5,0.0
7.6,0.0
7.7,0.0
7.8,0.0
7.9,0.0
8.0,0.0
8.1,0.0
8.2,0.0
8.3,0.0
8.4,0.0
8.5,0.0
8.6,0.0
8.7,0.0
8.8,0.0
8.9,0.0
9.0,0.0
9.1,0.0
9.2,0.0
9.3,0.0
9.4,0.0
9.5,0.0
9.6,0.0
9.7,0.0
9.8,0.0
9.9,0.0
10.0,0.0
10.1,0.0
10.2,0.0
10.3,0.0
10.4,0.0
10.5,0.0
10.6,0.0
10.7,0.0
10.8,0.0
10.9,0.0
11.0,0.0
11.1,0.0
11.2,0.0
11.3,0.0
11.4,0.0
11.5,0.0
11.6,0.0
11.7,0.0
11.8,0.0
11.9,0.0
12.0,0.0
12.1,0.0
12.2,0.0
12.3,0.0
12.4,0.0
12.5,0.0
12.6,0.0
12.7,0.0
12.8,0.0
12.9,0.0
13.0,0.0
13.1,0.0
13.2,0.0
13.3,0.0
13.4,0.0
13.5,0.0
13.6,0.0
13.7,0.0
13.8,0.0
13.9,0.0
14.0,0.0
14.1,0.0
14.2,0.0
14.3,0.0
14.4,0.0
14.5,0.0
14.6,0.0
14.7,0.0
14.8,0.0
14.9,0.0
15.0,0.0
15.1,0.0
15.2,0.0
15.3,0.0
15.4,0.0
15.5,0.0
15.6,0.0
15.7,0.0
15.8,0.0
15.9,0.0
16.0,0.0
16.1,0.0
16.2,0.0
16.3,0.0
16.4,0.0
16.5,0.0
16.6,1.0
16.7,5.0
16.8,11.0
16.9,11.0
17.0,4.0
17.1,1.0
17.2,0.0
17.3,0.0
17.4,0.0
17.5,0.0
17.6,0.0
17.7,0.0
17.8,0.0
17.9,0.0
18.0,0.0
18.1,0.0
18.2,0.0
18.3,0.0
18.4,0.0
18.5,0.0
18.6,0.0
18.7,0.0
18.8,0.0
18.9,0.0
19.0,0.0
19.1,0.0
19.2,0.0
19.3,0.0
19.4,0.0
19.5,0.0
19.6,0.0
19.7,0.0
19.8,0.0
19.9,0.0
20.0,0.0
20.1,0.0
20.2,0.0
20.3,0.0
20.4,0.0
20.5,0.0
20.6,0.0
20.7,0.0
20.8,0.0
20.9,0.0
21.0,0.0
21.1,0.0
21.2,0.0
21.3,0.0
21.4,6.0
21.5,39.0
21.6,109.0
21.7,123.0
21.8,55.0
21.9,10.0
22.0,1.0
22.1,0.0
22.2,0.0
22.3,0.0
22.4,0.0
22.5,0.0
22.6,0.0
22.7,0.0
22.8,0.0
22.9,0.0
23.0,0.0
23.1,0.0
23.2,0.0
23.3,0.0
23.4,1.0
23.5,4.0
23.6,10.0
23.7,10.0
23.8,4.0
23.9,6.0
24.0,42.0
24.1,134.0
24.2,168.0
24.3,83.0
24.4,17.0
24.5,14.0
24.6,78.0
24.7,186.0
24.8,174.0
24.9,65.0
25.0,20.0
25.1,68.0
25.2,173.0
25.3,172.0
25.4,67.0
25.5,10.0
25.6,1.0
25.7,0.0
25.8,0.0
25.9,0.0
26.0,0.0
26.1,0.0
26.2,0.0
26.3,0.0
26.4,0.0
26.5,0.0
26.6,0.0
26.7,0.0
26.8,0.0
26.9,0.0
27.0,0.0
27.1,0.0
27.2,0.0
27.3,7.0
27.4,54.0
27.5,168.0
27.6,213.0
27.7,150.0
27.8,104.0
27.9,52.0
28.0,16.0
28.1,32.0
28.2,78.0
28.3,76.0
28.4,28.0
28.5,4.0
28.6,0.0
28.7,0.0
28.8,0.0
28.9,0.0
29.0,0.0
29.1,0.0
29.2,0.0
29.3,0.0
29.4,0.0
29.5,0.0
29.6,0.0
29.7,0.0
29.8,0.0
29.9,0.0
30.0,0.0
30.1,0.0
30.2,0.0
30.3,0.0
30.4,0.0
30.5,0.0
30.6,0.0
30.7,0.0
30.8,0.0
30.9,0.0
31.0,0.0
31.1,0.0
31.2,0.0
31.3,0.0
31.4,0.0
31.5,0.0
31.6,0.0
31.7,0.0
31.8,0.0
31.9,0.0
32.0,1.0
32.1,8.0
32.2,31.0
32.3,43.0
32.4,23.0
32.5,6.0
32.6,6.0
32.7,8.0
32.8,4.0
32.9,1.0
33.0,0.0
33.1,0.0
33.2,0.0
33.3,0.0
33.4,0.0
33.5,0.0
33.6,0.0
33.7,0.0
33.8,0.0
33.9,3.0
34.0,9.0
34.1,11.0
34.2,5.0
34.3,1.0
34.4,0.0
34.5,0.0
34.6,0.0
34.7,0.0
34.8,0.0
34.9,0.0
35.0,0.0
35.1,0.0
35.2,0.0
35.3,0.0
35.4,0.0
35.5,0.0
35.6,0.0
35.7,0.0
35.8,0.0
35.9,0.0
36.0,0.0
36.1,0.0
36.2,0.0
36.3,0.0
36.4,1.0
36.5,2.0
36.6,1.0
36.7,0.0
36.8,0.0
36.9,0.0
37.0,0.0
37.1,0.0
37.2,1.0
37.3,0.0
37.4,0.0
37.5,3.0
37.6,28.0
37.7,112.0
37.8,221.0
37.9,236.0
38.0,156.0
38.1,112.0
38.2,67.0
38.3,20.0
38.4,41.0
38.5,214.0
38.6,426.0
38.7,310.0
38.8,83.0
38.9,8.0
39.0,5.0
39.1,58.0
39.2,260.0
39.3,428.0
39.4,256.0
39.5,56.0
39.6,4.0
39.7,0.0
39.8,0.0
39.9,0.0
40.0,0.0
40.1,0.0
40.2,0.0
40.3,1.0
40.4,56.0
40.5,965.0
40.6,6383.0
40.7,15345.0
40.8,13368.0
40.9,4219.0
41.0,483.0
41.1,6.0
41.2,69.0
41.3,267.0
41.4,374.0
41.5,189.0
41.6,35.0
41.7,2.0
41.8,0.0
41.9,0.0
42.0,0.0
42.1,0.0
42.2,0.0
42.3,0.0
42.4,0.0
42.5,0.0
42.6,0.0
42.7,0.0
42.8,0.0
42.9,0.0
43.0,0.0
43.1,0.0
43.2,0.0
43.3,0.0
43.4,0.0
43.5,0.0
43.6,0.0
43.7,0.0
43.8,5.0
43.9,156.0
44.0,1114.0
44.1,3094.0
44.2,3130.0
44.3,1142.0
44.4,153.0
44.5,26.0
44.6,69.0
44.7,93.0
44.8,44.0
44.9,7.0
45.0,0.0
45.1,0.0
45.2,1.0
45.3,2.0
45.4,2.0
45.5,1.0
45.6,0.0
45.7,0.0
45.8,0.0
45.9,0.0
46.0,0.0
46.1,0.0
46.2,0.0
46.3,0.0
46.4,0.0
46.5,0.0
46.6,0.0
46.7,0.0
46.8,0.0
46.9,0.0
47.0,0.0
47.1,0.0
47.2,0.0
47.3,0.0
47.4,0.0
47.5,1.0
47.6,2.0
47.7,1.0
47.8,0.0
47.9,0.0
48.0,0.0
48.1,36.0
48.2,409.0
48.3,1665.0
48.4,2419.0
48.5,1261.0
48.6,237.0
48.7,19.0
48.8,29.0
48.9,128.0
49.0,203.0
49.1,113.0
49.2,33.0
49.3,177.0
49.4,1012.0
49.5,2047.0
49.6,1453.0
49.7,362.0
49.8,32.0
49.9,0.0
50.0,1.0
50.1,2.0
50.2,1.0
50.3,0.0
50.4,0.0
50.5,1.0
50.6,2.0
50.7,5.0
50.8,13.0
50.9,34.0
51.0,39.0
51.1,16.0
51.2,2.0
51.3,0.0
51.4,0.0
51.5,0.0
51.6,0.0
51.7,0.0
51.8,1.0
51.9,4.0
52.0,19.0
52.1,46.0
52.2,40.0
52.3,12.0
52.4,1.0
52.5,0.0
52.6,0.0
52.7,0.0
52.8,0.0
52.9,0.0
53.0,0.0
53.1,0.0
53.2,0.0
53.3,0.0
53.4,9.0
53.5,62.0
53.6,145.0
53.7,118.0
53.8,33.0
53.9,7.0
54.0,39.0
54.1,125.0
54.2,141.0
54.3,56.0
54.4,9.0
54.5,1.0
54.6,1.0
54.7,1.0
54.8,0.0
54.9,0.0
55.0,1.0
55.1,3.0
55.2,9.0
55.3,24.0
55.4,26.0
55.5,18.0
55.6,15.0
55.7,7.0
55.8,1.0
55.9,2.0
56.0,10.0
56.1,22.0
56.2,16.0
56.3,4.0
56.4,0.0
56.5,0.0
56.6,0.0
56.7,1.0
56.8,5.0
56.9,16.0
57.0,21.0
57.1,14.0
57.2,5.0
57.3,1.0
57.4,1.0
57.5,1.0
57.6,5.0
57.7,15.0
57.8,31.0
57.9,39.0
58.0,32.0
58.1,40.0
58.2,35.0
58.3,12.0
58.4,3.0
58.5,1.0
58.6,0.0
58.7,0.0
58.8,0.0
58.9,0.0
59.0,0.0
59.1,0.0
59.2,0.0
59.3,3.0
59.4,27.0
59.5,91.0
59.6,112.0
59.7,50.0
59.8,9.0
59.9,1.0
60.0,0.0
60.1,4.0
60.2,29.0
60.3,87.0
60.4,91.0
60.5,33.0
60.6,4.0
60.7,1.0
60.8,1.0
60.9,1.0
61.0,0.0
61.1,0.0
61.2,0.0
61.3,0.0
61.4,0.0
61.5,0.0
61.6,0.0
61.7,0.0
61.8,0.0
61.9,0.0
62.0,1.0
62.1,1.0
62.2,1.0
62.3,0.0
62.4,0.0
62.5,0.0
62.6,0.0
62.7,0.0
62.8,1.0
62.9,6.0
63.0,18.0
63.1,29.0
63.2,29.0
63.3,17.0
63.4,24.0
63.5,60.0
63.6,57.0
63.7,21.0
63.8,15.0
63.9,26.0
64.0,18.0
64.1,4.0
64.2,0.0
64.3,0.0
64.4,2.0
64.5,2.0
64.6,1.0
64.7,1.0
64.8,15.0
64.9,62.0
65.0,103.0
65.1,68.0
65.2,18.0
65.3,3.0
65.4,1.0
65.5,1.0
65.6,1.0
65.7,1.0
65.8,2.0
65.9,6.0
66.0,36.0
66.1,85.0
66.2,71.0
66.3,38.0
66.4,67.0
66.5,109.0
66.6,110.0
66.7,55.0
66.8,10.0
66.9,1.0
67.0,0.0
67.1,0.0
67.2,1.0
67.3,50.0
67.4,424.0
67.5,1324.0
67.6,1479.0
67.7,583.0
67.8,81.0
67.9,4.0
68.0,0.0
68.1,0.0
68.2,20.0
68.3,235.0
68.4,994.0
68.5,1467.0
68.6,754.0
68.7,138.0
68.8,14.0
68.9,7.0
69.0,3.0
69.1,1.0
69.2,0.0
69.3,0.0
69.4,0.0
69.5,0.0
69.6,0.0
69.7,0.0
69.8,0.0
69.9,0.0
70.0,0.0
70.1,0.0
70.2,0.0
70.3,0.0
70.4,1.0
70.5,11.0
70.6,34.0
70.7,47.0
70.8,54.0
70.9,52.0
71.0,23.0
71.1,8.0
71.2,12.0
71.3,11.0
71.4,7.0
71.5,54.0
71.6,384.0
71.7,958.0
71.8,837.0
71.9,255.0
72.0,30.0
72.1,19.0
72.2,40.0
72.3,30.0
72.4,8.0
72.5,1.0
72.6,0.0
72.7,0.0
72.8,0.0
72.9,0.0
73.0,0.0
73.1,3.0
73.2,17.0
73.3,38.0
73.4,31.0
73.5,18.0
73.6,29.0
73.7,66.0
73.8,83.0
73.9,45.0
74.0,12.0
74.1,14.0
74.2,82.0
74.3,189.0
74.4,155.0
74.5,47.0
74.6,16.0
74.7,29.0
74.8,28.0
74.9,14.0
75.0,30.0
75.1,111.0
75.2,195.0
75.3,133.0
75.4,34.0
75.5,15.0
75.6,79.0
75.7,181.0
75.8,166.0
75.9,87.0
76.0,39.0
76.1,11.0
76.2,7.0
76.3,28.0
76.4,70.0
76.5,132.0
76.6,181.0
76.7,112.0
76.8,26.0
76.9,2.0
77.0,0.0
77.1,0.0
77.2,0.0
77.3,0.0
77.4,0.0
77.5,0.0
77.6,4.0
77.7,19.0
77.8,44.0
77.9,64.0
78.0,84.0
78.1,65.0
78.2,21.0
78.3,5.0
78.4,1.0
78.5,0.0
78.6,30.0
78.7,337.0
78.8,1391.0
78.9,2078.0
79.0,1124.0
79.1,221.0
79.2,16.0
79.3,0.0
79.4,3.0
79.5,12.0
79.6,18.0
79.7,10.0
79.8,5.0
79.9,11.0
80.0,20.0
80.1,22.0
80.2,16.0
80.3,6.0
80.4,1.0
80.5,0.0
80.6,0.0
80.7,1.0
80.8,4.0
80.9,16.0
81.0,33.0
81.1,77.0
81.2,152.0
81.3,129.0
81.4,45.0
81.5,16.0
81.6,16.0
81.7,11.0
81.8,16.0
81.9,52.0
82.0,122.0
82.1,163.0
82.2,95.0
82.3,27.0
82.4,19.0
82.5,23.0
82.6,28.0
82.7,34.0
82.8,20.0
82.9,5.0
83.0,2.0
83.1,5.0
83.2,7.0
83.3,3.0
83.4,1.0
83.5,3.0
83.6,4.0
83.7,2.0
83.8,0.0
83.9,0.0
84.0,0.0
84.1,0.0
84.2,0.0
84.3,0.0
84.4,1.0
84.5,1.0
84.6,1.0
84.7,0.0
84.8,38.0
84.9,302.0
85.0,920.0
85.1,1070.0
85.2,522.0
85.3,187.0
85.4,80.0
85.5,20.0
85.6,2.0
85.7,1.0
85.8,3.0
85.9,18.0
86.0,69.0
86.1,139.0
86.2,137.0
86.3,58.0
86.4,10.0
86.5,26.0
86.6,231.0
86.7,806.0
86.8,1082.0
86.9,559.0
87.0,111.0
87.1,11.0
87.2,8.0
87.3,16.0
87.4,15.0
87.5,6.0
87.6,2.0
87.7,0.0
87.8,0.0
87.9,6.0
88.0,91.0
88.1,499.0
88.2,1069.0
88.3,892.0
88.4,290.0
88.5,37.0
88.6,0.0
88.7,0.0
88.8,0.0
88.9,0.0
89.0,0.0
89.1,0.0
89.2,0.0
89.3,0.0
89.4,1.0
89.5,4.0
89.6,20.0
89.7,47.0
89.8,46.0
89.9,22.0
90.0,14.0
90.1,28.0
90.2,41.0
90.3,29.0
90.4,9.0
90.5,1.0
90.6,0.0
90.7,0.0
90.8,0.0
90.9,4.0
91.0,19.0
91.1,35.0
91.2,27.0
91.3,9.0
91.4,2.0
91.5,0.0
91.6,0.0
91.7,0.0
91.8,0.0
91.9,1.0
92.0,7.0
92.1,22.0
92.2,31.0
92.3,17.0
92.4,4.0
92.5,1.0
92.6,3.0
92.7,13.0
92.8,32.0
92.9,37.0
93.0,20.0
93.1,10.0
93.2,32.0
93.3,73.0
93.4,70.0
93.5,28.0
93.6,5.0
93.7,1.0
93.8,4.0
93.9,26.0
94.0,77.0
94.1,105.0
94.2,65.0
94.3,18.0
94.4,4.0
94.5,12.0
94.6,42.0
94.7,62.0
94.8,38.0
94.9,10.0
95.0,1.0
95.1,0.0
95.2,0.0
95.3,0.0
95.4,0.0
95.5,0.0
95.6,1.0
95.7,9.0
95.8,38.0
95.9,82.0
96.0,120.0
96.1,141.0
96.2,97.0
96.3,31.0
96.4,5.0
96.5,2.0
96.6,2.0
96.7,6.0
96.8,31.0
96.9,89.0
97.0,119.0
97.1,106.0
97.2,127.0
97.3,197.0
97.4,312.0
97.5,326.0
97.6,165.0
97.7,39.0
97.8,6.0
97.9,3.0
98.0,7.0
98.1,17.0
98.2,31.0
98.3,30.0
98.4,13.0
98.5,2.0
98.6,0.0
98.7,1.0
98.8,8.0
98.9,19.0
99.0,23.0
99.1,21.0
99.2,24.0
99.3,20.0
99.4,14.0
99.5,21.0
99.6,33.0
99.7,29.0
99.8,16.0
99.9,16.0
100.0,41.0
100.1,74.0
100.2,65.0
100.3,33.0
100.4,29.0
100.5,37.0
100.6,26.0
100.7,8.0
100.8,1.0
100.9,0.0
101.0,0.0
101.1,2.0
101.2,7.0
101.3,9.0
101.4,6.0
101.5,2.0
101.6,1.0
101.7,3.0
101.8,6.0
101.9,11.0
102.0,15.0
102.1,11.0
102.2,4.0
102.3,2.0
102.4,4.0
102.5,15.0
102.6,42.0
102.7,74.0
102.8,92.0
102.9,104.0
103.0,99.0
103.1,59.0
103.2,21.0
103.3,7.0
103.4,7.0
103.5,10.0
103.6,14.0
103.7,37.0
103.8,70.0
103.9,66.0
104.0,32.0
104.1,22.0
104.2,40.0
104.3,49.0
104.4,30.0
104.5,10.0
104.6,3.0
104.7,2.0
104.8,4.0
104.9,7.0
105.0,6.0
105.1,5.0
105.2,7.0
105.3,7.0
105.4,4.0
105.5,3.0
105.6,5.0
105.7,7.0
105.8,5.0
105.9,2.0
106.0,0.0
106.1,0.0
106.2,0.0
106.3,0.0
106.4,0.0
106.5,1.0
106.6,2.0
106.7,7.0
106.8,27.0
106.9,52.0
107.0,55.0
107.1,37.0
107.2,24.0
107.3,15.0
107.4,7.0
107.5,3.0
107.6,2.0
107.7,1.0
107.8,0.0
107.9,0.0
108.0,0.0
108.1,0.0
108.2,0.0
108.3,0.0
108.4,0.0
108.5,1.0
108.6,3.0
108.7,8.0
108.8,11.0
108.9,8.0
109.0,4.0
109.1,5.0
109.2,17.0
109.3,44.0
109.4,65.0
109.5,55.0
109.6,27.0
109.7,12.0
109.8,23.0
109.9,64.0
110.0,119.0
110.1,133.0
110.2,83.0
110.3,30.0
110.4,10.0
110.5,14.0
110.6,22.0
110.7,28.0
110.8,36.0
110.9,44.0
111.0,40.0
111.1,21.0
111.2,6.0
111.3,1.0
111.4,0.0
111.5,0.0
111.6,1.0
111.7,2.0
111.8,4.0
111.9,5.0
112.0,4.0
112.1,2.0
112.2,1.0
112.3,0.0
112.4,0.0
112.5,0.0
112.6,2.0
112.7,6.0
112.8,15.0
112.9,21.0
113.0,18.0
113.1,10.0
113.2,4.0
113.3,1.0
113.4,2.0
113.5,15.0
113.6,55.0
113.7,114.0
113.8,135.0
113.9,100.0
114.0,63.0
114.1,47.0
114.2,40.0
114.3,41.0
114.4,48.0
114.5,43.0
114.6,24.0
114.7,8.0
114.8,3.0
114.9,5.0
115.0,12.0
115.1,17.0
115.2,17.0
115.3,14.0
115.4,18.0
115.5,30.0
115.6,45.0
115.7,61.0
115.8,64.0
115.9,43.0
116.0,18.0
116.1,5.0
116.2,1.0
116.3,0.0
116.4,0.0
116.5,0.0
116.6,0.0
116.7,0.0
116.8,0.0
116.9,0.0
117.0,1.0
117.1,3.0
117.2,7.0
117.3,11.0
117.4,22.0
117.5,72.0
117.6,202.0
117.7,363.0
117.8,393.0
117.9,257.0
118.0,103.0
118.1,33.0
118.2,29.0
118.3,72.0
118.4,227.0
118.5,549.0
118.6,890.0
118.7,945.0
118.8,664.0
118.9,313.0
119.0,112.0
119.1,51.0
119.2,36.0
119.3,22.0
119.4,11.0
119.5,5.0
119.6,4.0
119.7,4.0
119.8,3.0
119.9,2.0
120.0,1.0